Folder: ThinFilmFrenselsComputation/MaterialsAndEquations/MaterialsAndEquations/KnownMaterials

File: BK7.csv
Wavelength(nm),RefractiveIndex,
2325.42,1.489640
1970.09,1.495235
1529.58,1.501060
1060.0,1.506743
1013.98,1.507356
852.11,1.509828
706.52,1.512901
656.27,1.514326
643.85,1.514723
632.8,1.515092
589.29,1.516728
587.56,1.516800
546.07,1.518721
486.13,1.522376
479.99,1.522830
435.83,1.526690
404.66,1.530251
365.01,1.536288
313.18,1.548455
302.15,1.552035